##TITLE= 29184
##JCAMP_DX= 4.24
##DATA TYPE= INFRARED SPECTRUM
##CLASS= <UNKNOWN>
##DATE= 2014/04/26
##DATA PROCESSING= 0
##XUNITS= NANOMETERS
##YUNITS= TRANSMITTANCE\REFLECTANCE
##XFACTOR= 1.00000
##YFACTOR= 1.00000
##FIRSTX= 400.00
##LASTX= 2498.00
##MINY= 0.118516
##MAXY= 0.952408
##NPOINTS= 1050
##FIRSTY= 0.702439
##CONCENTRATIONS= (NCU)
<Anonymized1>,93.83,<N.A.>
<Anonymized2>,68.00,<N.A.>
<Anonymized3>,15.25,<N.A.>
<Anonymized4>,13.58,<N.A.>
##XYDATA= (X++(Y..Y))
400.00 0.702439 0.723267 0.742153 0.759347 0.776200 0.792100 0.805801
414.00 0.817523 0.827437 0.836149 0.844104 0.851744 0.858596 0.864030
428.00 0.868394 0.872256 0.875655 0.876765 0.874885 0.871474 0.867029
442.00 0.861808 0.856415 0.852204 0.850000 0.850568 0.852827 0.857028
456.00 0.862797 0.868593 0.872471 0.874281 0.874116 0.872352 0.869253
470.00 0.864692 0.859382 0.854166 0.849465 0.844797 0.839630 0.834389
484.00 0.829917 0.826012 0.821904 0.817663 0.813778 0.810066 0.805886
498.00 0.800855 0.794888 0.788157 0.780565 0.772412 0.764029 0.755415
512.00 0.746077 0.735171 0.723261 0.711222 0.699366 0.687842 0.677622
526.00 0.669231 0.662565 0.657171 0.652852 0.650099 0.648246 0.646675
540.00 0.645559 0.645245 0.645236 0.644905 0.644663 0.645044 0.646043
554.00 0.647670 0.649742 0.652307 0.655507 0.659302 0.663200 0.666879
568.00 0.670348 0.673661 0.677023 0.680645 0.684387 0.688077 0.691969
582.00 0.695995 0.699855 0.703703 0.707923 0.712188 0.716170 0.720191
596.00 0.724614 0.729312 0.734062 0.739043 0.744239 0.749293 0.753990
610.00 0.758530 0.762976 0.767043 0.770369 0.773039 0.775486 0.777830
624.00 0.780109 0.782604 0.785622 0.789268 0.793859 0.799344 0.805759
638.00 0.813032 0.821223 0.830136 0.839419 0.849266 0.859671 0.870536
652.00 0.881724 0.893011 0.904149 0.915006 0.925194 0.934362 0.942198
666.00 0.948038 0.951698 0.952408 0.950122 0.944138 0.934264 0.920667
680.00 0.902372 0.880439 0.854792 0.826163 0.795236 0.762503 0.728761
694.00 0.694641 0.660731 0.627483 0.595476 0.564945 0.536249 0.509296
708.00 0.484512 0.461664 0.440830 0.422004 0.404808 0.389509 0.375642
722.00 0.363310 0.352355 0.342578 0.333922 0.326154 0.319282 0.313035
736.00 0.307422 0.302384 0.297834 0.293773 0.290036 0.286620 0.283453
750.00 0.280506 0.277754 0.275143 0.272684 0.270354 0.268124 0.265951
764.00 0.263839 0.261737 0.259605 0.257404 0.255045 0.252395 0.249516
778.00 0.246732 0.244376 0.242417 0.240804 0.239382 0.238067 0.236800
792.00 0.235568 0.234355 0.233166 0.231997 0.230819 0.229635 0.228461
806.00 0.227296 0.226126 0.224956 0.223795 0.222648 0.221508 0.220364
820.00 0.219226 0.218100 0.216980 0.215864 0.214756 0.213666 0.212588
834.00 0.211514 0.210433 0.209351 0.208289 0.207253 0.206234 0.205227
848.00 0.204245 0.203280 0.202321 0.201374 0.200444 0.199525 0.198611
862.00 0.197717 0.196848 0.196001 0.195173 0.194353 0.193534 0.192715
876.00 0.191904 0.191108 0.190325 0.189532 0.188720 0.187927 0.187170
890.00 0.186432 0.185694 0.184952 0.184207 0.183468 0.182750 0.182061
904.00 0.181362 0.180631 0.179896 0.179181 0.178471 0.177760 0.177072
918.00 0.176419 0.175779 0.175127 0.174473 0.173837 0.173206 0.172573
932.00 0.171940 0.171318 0.170710 0.170105 0.169488 0.168863 0.168260
946.00 0.167684 0.167125 0.166572 0.166035 0.165511 0.165001 0.164504
960.00 0.164014 0.163535 0.163067 0.162614 0.162172 0.161742 0.161318
974.00 0.160903 0.160497 0.160094 0.159682 0.159262 0.158844 0.158429
988.00 0.158006 0.157578 0.157141 0.156694 0.156243 0.155796 0.155364
1002.00 0.154931 0.154483 0.154040 0.153610 0.153179 0.152749 0.152315
1016.00 0.151866 0.151415 0.150978 0.150549 0.150113 0.149666 0.149217
1030.00 0.148767 0.148313 0.147856 0.147382 0.146884 0.146390 0.145930
1044.00 0.145493 0.145052 0.144612 0.144178 0.143728 0.143264 0.142799
1058.00 0.142324 0.141838 0.141367 0.140916 0.140486 0.140056 0.139622
1072.00 0.139190 0.138774 0.138401 0.138064 0.137709 0.137337 0.136979
1086.00 0.136619 0.136260 0.135926 0.135636 0.135360 0.135072 0.134766
1100.00 0.126440 0.126155 0.125882 0.125616 0.125357 0.125108 0.124868
1114.00 0.124634 0.124405 0.124202 0.124036 0.123914 0.123824 0.123780
1128.00 0.123774 0.123808 0.123877 0.123981 0.124119 0.124286 0.124469
1142.00 0.124661 0.124866 0.125091 0.125347 0.125630 0.125936 0.126261
1156.00 0.126604 0.126956 0.127321 0.127683 0.128016 0.128327 0.128623
1170.00 0.128916 0.129202 0.129482 0.129774 0.130082 0.130391 0.130694
1184.00 0.130991 0.131257 0.131489 0.131676 0.131821 0.131910 0.131957
1198.00 0.131960 0.131931 0.131874 0.131806 0.131716 0.131593 0.131419
1212.00 0.131200 0.130912 0.130573 0.130175 0.129741 0.129280 0.128795
1226.00 0.128302 0.127811 0.127327 0.126851 0.126398 0.125953 0.125529
1240.00 0.125123 0.124729 0.124349 0.123991 0.123645 0.123316 0.123005
1254.00 0.122728 0.122483 0.122275 0.122089 0.121931 0.121786 0.121649
1268.00 0.121522 0.121408 0.121297 0.121173 0.121040 0.120888 0.120722
1282.00 0.120545 0.120365 0.120184 0.119999 0.119813 0.119634 0.119460
1296.00 0.119286 0.119126 0.118974 0.118840 0.118730 0.118659 0.118606
1310.00 0.118560 0.118522 0.118516 0.118537 0.118606 0.118711 0.118857
1324.00 0.119059 0.119328 0.119647 0.120021 0.120442 0.120923 0.121466
1338.00 0.122074 0.122748 0.123478 0.124260 0.125113 0.126054 0.127043
1352.00 0.128053 0.129079 0.130129 0.131177 0.132197 0.133192 0.134132
1366.00 0.135009 0.135820 0.136589 0.137309 0.137992 0.138674 0.139375
1380.00 0.140131 0.140958 0.141875 0.142895 0.144044 0.145320 0.146708
1394.00 0.148237 0.149889 0.151734 0.153739 0.155973 0.158400 0.161040
1408.00 0.163840 0.166818 0.169905 0.173108 0.176400 0.179717 0.183050
1422.00 0.186374 0.189667 0.192909 0.195981 0.198880 0.201591 0.204137
1436.00 0.206475 0.208632 0.210565 0.212325 0.213926 0.215396 0.216760
1450.00 0.218018 0.219198 0.220318 0.221389 0.222400 0.223355 0.224254
1464.00 0.225098 0.225877 0.226609 0.227283 0.227884 0.228417 0.228889
1478.00 0.229330 0.229732 0.230098 0.230426 0.230715 0.230970 0.231187
1492.00 0.231347 0.231452 0.231487 0.231462 0.231382 0.231226 0.231011
1506.00 0.230755 0.230478 0.230176 0.229855 0.229515 0.229182 0.228849
1520.00 0.228539 0.228260 0.228020 0.227824 0.227647 0.227505 0.227426
1534.00 0.227409 0.227408 0.227415 0.227455 0.227512 0.227553 0.227579
1548.00 0.227610 0.227645 0.227677 0.227694 0.227723 0.227765 0.227840
1562.00 0.227945 0.228075 0.228211 0.228354 0.228495 0.228613 0.228694
1576.00 0.228744 0.228764 0.228750 0.228704 0.228605 0.228449 0.228235
1590.00 0.227970 0.227663 0.227300 0.226907 0.226481 0.226022 0.225537
1604.00 0.225028 0.224512 0.223989 0.223449 0.222933 0.222443 0.221951
1618.00 0.221457 0.220966 0.220483 0.220011 0.219538 0.219063 0.218582
1632.00 0.218106 0.217647 0.217217 0.216835 0.216497 0.216221 0.216004
1646.00 0.215821 0.215696 0.215628 0.215655 0.215799 0.216046 0.216411
1660.00 0.216840 0.217362 0.217960 0.218589 0.219267 0.219966 0.220733
1674.00 0.221615 0.222573 0.223627 0.224756 0.225954 0.227244 0.228603
1688.00 0.230018 0.231484 0.232924 0.234281 0.235546 0.236681 0.237728
1702.00 0.238724 0.239668 0.240585 0.241473 0.242308 0.243079 0.243808
1716.00 0.244485 0.245121 0.245719 0.246258 0.246731 0.247096 0.247315
1730.00 0.247344 0.247144 0.246753 0.246240 0.245688 0.245177 0.244767
1744.00 0.244452 0.244240 0.244117 0.244060 0.244054 0.244088 0.244142
1758.00 0.244194 0.244206 0.244150 0.244011 0.243742 0.243334 0.242822
1772.00 0.242247 0.241657 0.241101 0.240585 0.240123 0.239728 0.239380
1786.00 0.239073 0.238815 0.238585 0.238353 0.238107 0.237836 0.237545
1800.00 0.237239 0.236909 0.236564 0.236220 0.235889 0.235582 0.235269
1814.00 0.234928 0.234581 0.234221 0.233850 0.233481 0.233083 0.232664
1828.00 0.232238 0.231782 0.231295 0.230799 0.230319 0.229889 0.229483
1842.00 0.229077 0.228668 0.228265 0.227917 0.227637 0.227447 0.227371
1856.00 0.227383 0.227467 0.227620 0.227849 0.228145 0.228551 0.229087
1870.00 0.229748 0.230599 0.231627 0.232844 0.234320 0.236142 0.238369
1884.00 0.241056 0.244341 0.248188 0.252624 0.257717 0.263338 0.269405
1898.00 0.275850 0.282558 0.289423 0.296263 0.302951 0.309405 0.315525
1912.00 0.321243 0.326544 0.331431 0.335833 0.339709 0.343102 0.345972
1926.00 0.348314 0.350170 0.351548 0.352431 0.352867 0.352952 0.352690
1940.00 0.352084 0.351224 0.350151 0.348899 0.347488 0.345986 0.344407
1954.00 0.342782 0.341166 0.339550 0.337955 0.336386 0.334858 0.333391
1968.00 0.331968 0.330573 0.329194 0.327825 0.326451 0.325055 0.323637
1982.00 0.322211 0.320780 0.319367 0.317997 0.316684 0.315441 0.314288
1996.00 0.313268 0.312407 0.311704 0.311191 0.310873 0.310759 0.310847
2010.00 0.311138 0.311658 0.312404 0.313375 0.314574 0.316030 0.317723
2024.00 0.319653 0.321810 0.324175 0.326745 0.329501 0.332427 0.335522
2038.00 0.338728 0.342047 0.345451 0.348947 0.352445 0.355858 0.359214
2052.00 0.362435 0.365488 0.368343 0.370918 0.373253 0.375342 0.377231
2066.00 0.378940 0.380526 0.382026 0.383412 0.384701 0.385873 0.386986
2080.00 0.388026 0.388967 0.389864 0.390720 0.391536 0.392292 0.393015
2094.00 0.393705 0.394363 0.394991 0.395554 0.396054 0.396478 0.396836
2108.00 0.397171 0.397516 0.397840 0.398120 0.398362 0.398577 0.398744
2122.00 0.398847 0.398920 0.398987 0.399044 0.399061 0.399077 0.399084
2136.00 0.399064 0.399031 0.398895 0.398657 0.398324 0.397898 0.397429
2150.00 0.396929 0.396417 0.395921 0.395454 0.394974 0.394456 0.393881
2164.00 0.393290 0.392682 0.391998 0.391243 0.390437 0.389630 0.388823
2178.00 0.388009 0.387160 0.386252 0.385321 0.384371 0.383402 0.382399
2192.00 0.381397 0.380437 0.379503 0.378584 0.377700 0.376837 0.375994
2206.00 0.375162 0.374342 0.373584 0.372897 0.372288 0.371805 0.371508
2220.00 0.371395 0.371468 0.371742 0.372301 0.373200 0.374453 0.376116
2234.00 0.378179 0.380661 0.383443 0.386560 0.390032 0.393678 0.397361
2248.00 0.401071 0.404713 0.408235 0.411694 0.415009 0.418226 0.421317
2262.00 0.424252 0.427148 0.430039 0.432852 0.435481 0.437816 0.439853
2276.00 0.441602 0.443032 0.444244 0.445287 0.446242 0.447090 0.447887
2290.00 0.448862 0.450039 0.451437 0.453103 0.454976 0.456980 0.459026
2304.00 0.461045 0.462917 0.464498 0.465644 0.466148 0.465981 0.465302
2318.00 0.464533 0.463956 0.463712 0.463775 0.463976 0.464298 0.464758
2332.00 0.465329 0.465961 0.466662 0.467409 0.468182 0.468938 0.469576
2346.00 0.469968 0.469951 0.469475 0.468496 0.467202 0.465774 0.464314
2360.00 0.462972 0.461712 0.460528 0.459480 0.458566 0.457805 0.457273
2374.00 0.456953 0.456849 0.456940 0.457195 0.457540 0.457949 0.458367
2388.00 0.458677 0.458987 0.459330 0.459650 0.459927 0.460214 0.460615
2402.00 0.461146 0.461840 0.462721 0.463689 0.464682 0.465659 0.466721
2416.00 0.467959 0.469339 0.470991 0.472853 0.474899 0.477108 0.479490
2430.00 0.482100 0.484897 0.487819 0.490948 0.494189 0.497381 0.500588
2444.00 0.503796 0.506947 0.510080 0.513134 0.516179 0.519285 0.522335
2458.00 0.525227 0.528050 0.530767 0.533445 0.536091 0.538682 0.541304
2472.00 0.543925 0.546455 0.548887 0.551226 0.553412 0.555372 0.557100
2486.00 0.558592 0.559803 0.560629 0.561183 0.561484 0.561460 0.561163
##END=
