##TITLE= 29182
##JCAMP_DX= 4.24
##DATA TYPE= INFRARED SPECTRUM
##CLASS= <UNKNOWN>
##DATE= 2014/04/26
##DATA PROCESSING= 0
##XUNITS= NANOMETERS
##YUNITS= TRANSMITTANCE\REFLECTANCE
##XFACTOR= 1.00000
##YFACTOR= 1.00000
##FIRSTX= 400.00
##LASTX= 2498.00
##MINY= 0.128642
##MAXY= 0.964589
##NPOINTS= 1050
##FIRSTY= 0.683215
##CONCENTRATIONS= (NCU)
<Anonymized1>,94.53,<N.A.>
<Anonymized2>,69.94,<N.A.>
<Anonymized3>,15.38,<N.A.>
<Anonymized4>,14.20,<N.A.>
##XYDATA= (X++(Y..Y))
400.00 0.683215 0.709680 0.734187 0.756521 0.777294 0.795651 0.811375
414.00 0.825522 0.838282 0.849374 0.858471 0.866570 0.873617 0.879182
428.00 0.883353 0.886199 0.888845 0.890707 0.889638 0.885294 0.878942
442.00 0.872480 0.866149 0.860818 0.857733 0.857848 0.859626 0.863098
456.00 0.868123 0.873535 0.877357 0.878929 0.878286 0.876277 0.873470
470.00 0.869737 0.865309 0.860604 0.856109 0.851737 0.847091 0.842398
484.00 0.838684 0.835943 0.832998 0.829435 0.826127 0.823174 0.819459
498.00 0.814373 0.808370 0.801832 0.794101 0.785264 0.775932 0.766348
512.00 0.756242 0.744751 0.731805 0.718264 0.705485 0.693753 0.683123
526.00 0.674041 0.667160 0.662088 0.657843 0.654664 0.652926 0.652703
540.00 0.653127 0.653485 0.653851 0.654499 0.655559 0.657026 0.658821
554.00 0.661111 0.664019 0.667383 0.670803 0.674496 0.678696 0.682914
568.00 0.686716 0.690265 0.693820 0.697269 0.700492 0.703561 0.706762
582.00 0.710008 0.713212 0.716425 0.719651 0.722964 0.726617 0.730619
596.00 0.734807 0.739222 0.743845 0.748708 0.753841 0.759059 0.764045
610.00 0.768739 0.773121 0.777224 0.780994 0.784210 0.786862 0.789317
624.00 0.791966 0.794823 0.798035 0.801905 0.806687 0.812203 0.818620
638.00 0.825910 0.834057 0.842993 0.852465 0.862541 0.873076 0.883994
652.00 0.895232 0.906575 0.917712 0.928520 0.938662 0.947721 0.955322
666.00 0.960884 0.964268 0.964589 0.961833 0.955346 0.944889 0.930745
680.00 0.912192 0.890150 0.864371 0.835661 0.804797 0.772229 0.738704
694.00 0.704880 0.671336 0.638513 0.606972 0.576961 0.548855 0.522525
708.00 0.498405 0.476276 0.456191 0.438131 0.421735 0.407248 0.394158
722.00 0.382546 0.372258 0.363085 0.354930 0.347577 0.341085 0.335208
736.00 0.329898 0.325067 0.320658 0.316688 0.313015 0.309643 0.306499
750.00 0.303543 0.300760 0.298111 0.295608 0.293225 0.290932 0.288684
764.00 0.286480 0.284268 0.282003 0.279647 0.277135 0.274348 0.271359
778.00 0.268511 0.266119 0.264101 0.262375 0.260815 0.259359 0.257954
792.00 0.256576 0.255210 0.253859 0.252517 0.251168 0.249824 0.248491
806.00 0.247159 0.245830 0.244521 0.243234 0.241964 0.240714 0.239471
820.00 0.238238 0.237029 0.235838 0.234656 0.233482 0.232335 0.231207
834.00 0.230077 0.228944 0.227818 0.226708 0.225623 0.224563 0.223510
848.00 0.222468 0.221432 0.220397 0.219372 0.218365 0.217365 0.216360
862.00 0.215364 0.214392 0.213441 0.212501 0.211567 0.210639 0.209721
876.00 0.208812 0.207916 0.207040 0.206160 0.205264 0.204389 0.203554
890.00 0.202741 0.201934 0.201146 0.200373 0.199610 0.198867 0.198149
904.00 0.197422 0.196664 0.195906 0.195165 0.194430 0.193690 0.192951
918.00 0.192225 0.191527 0.190845 0.190157 0.189465 0.188772 0.188071
932.00 0.187367 0.186675 0.185993 0.185304 0.184606 0.183906 0.183227
946.00 0.182576 0.181947 0.181324 0.180710 0.180111 0.179534 0.178975
960.00 0.178430 0.177908 0.177399 0.176904 0.176423 0.175957 0.175502
974.00 0.175060 0.174629 0.174198 0.173761 0.173317 0.172875 0.172431
988.00 0.171977 0.171515 0.171041 0.170553 0.170066 0.169591 0.169124
1002.00 0.168644 0.168143 0.167640 0.167150 0.166663 0.166178 0.165688
1016.00 0.165183 0.164676 0.164188 0.163712 0.163233 0.162745 0.162258
1030.00 0.161782 0.161308 0.160815 0.160310 0.159814 0.159339 0.158880
1044.00 0.158429 0.157977 0.157534 0.157098 0.156650 0.156186 0.155712
1058.00 0.155221 0.154725 0.154246 0.153782 0.153333 0.152876 0.152387
1072.00 0.151891 0.151411 0.150958 0.150531 0.150102 0.149668 0.149244
1086.00 0.148812 0.148383 0.147991 0.147650 0.147320 0.146979 0.146634
1100.00 0.138192 0.137932 0.137686 0.137453 0.137238 0.137042 0.136860
1114.00 0.136687 0.136521 0.136376 0.136259 0.136168 0.136091 0.136036
1128.00 0.136010 0.136016 0.136047 0.136096 0.136163 0.136243 0.136327
1142.00 0.136410 0.136499 0.136605 0.136737 0.136889 0.137066 0.137272
1156.00 0.137511 0.137770 0.138064 0.138373 0.138676 0.138979 0.139285
1170.00 0.139590 0.139894 0.140201 0.140533 0.140889 0.141257 0.141623
1184.00 0.141982 0.142301 0.142576 0.142792 0.142944 0.143026 0.143062
1198.00 0.143046 0.142991 0.142900 0.142784 0.142633 0.142443 0.142203
1212.00 0.141913 0.141549 0.141136 0.140669 0.140174 0.139662 0.139132
1226.00 0.138604 0.138089 0.137598 0.137129 0.136702 0.136294 0.135910
1240.00 0.135545 0.135201 0.134875 0.134579 0.134299 0.134036 0.133787
1254.00 0.133566 0.133362 0.133174 0.132997 0.132838 0.132687 0.132538
1268.00 0.132390 0.132234 0.132066 0.131877 0.131672 0.131440 0.131194
1282.00 0.130935 0.130670 0.130403 0.130141 0.129889 0.129652 0.129438
1296.00 0.129240 0.129073 0.128932 0.128822 0.128735 0.128686 0.128656
1310.00 0.128642 0.128648 0.128692 0.128759 0.128861 0.128992 0.129155
1324.00 0.129346 0.129572 0.129837 0.130160 0.130527 0.130941 0.131400
1338.00 0.131911 0.132492 0.133131 0.133819 0.134576 0.135422 0.136318
1352.00 0.137241 0.138190 0.139177 0.140175 0.141162 0.142139 0.143076
1366.00 0.143961 0.144792 0.145589 0.146343 0.147057 0.147765 0.148488
1380.00 0.149260 0.150092 0.150995 0.151969 0.153031 0.154177 0.155404
1394.00 0.156743 0.158183 0.159791 0.161534 0.163481 0.165614 0.167958
1408.00 0.170468 0.173168 0.175996 0.178960 0.182022 0.185140 0.188340
1422.00 0.191580 0.194802 0.197993 0.201052 0.203969 0.206724 0.209321
1436.00 0.211710 0.213925 0.215931 0.217772 0.219465 0.221032 0.222486
1450.00 0.223825 0.225073 0.226237 0.227334 0.228357 0.229312 0.230205
1464.00 0.231044 0.231800 0.232489 0.233114 0.233674 0.234174 0.234623
1478.00 0.235040 0.235416 0.235772 0.236109 0.236419 0.236707 0.236976
1492.00 0.237206 0.237406 0.237557 0.237657 0.237705 0.237694 0.237638
1506.00 0.237558 0.237463 0.237342 0.237199 0.237025 0.236823 0.236592
1520.00 0.236354 0.236121 0.235908 0.235726 0.235543 0.235368 0.235237
1534.00 0.235149 0.235075 0.235011 0.234966 0.234923 0.234880 0.234849
1548.00 0.234830 0.234819 0.234833 0.234859 0.234916 0.235016 0.235175
1562.00 0.235375 0.235608 0.235868 0.236144 0.236420 0.236675 0.236897
1576.00 0.237082 0.237223 0.237302 0.237330 0.237291 0.237183 0.236997
1590.00 0.236735 0.236415 0.236020 0.235573 0.235082 0.234554 0.233998
1604.00 0.233412 0.232812 0.232212 0.231615 0.231056 0.230543 0.230052
1618.00 0.229580 0.229131 0.228709 0.228315 0.227933 0.227561 0.227193
1632.00 0.226842 0.226514 0.226210 0.225949 0.225722 0.225542 0.225400
1646.00 0.225281 0.225208 0.225182 0.225239 0.225392 0.225619 0.225949
1660.00 0.226339 0.226819 0.227369 0.227949 0.228576 0.229225 0.229950
1674.00 0.230806 0.231756 0.232817 0.233969 0.235210 0.236567 0.238003
1688.00 0.239504 0.241070 0.242624 0.244098 0.245478 0.246730 0.247887
1702.00 0.248963 0.249958 0.250904 0.251801 0.252634 0.253403 0.254119
1716.00 0.254760 0.255341 0.255867 0.256324 0.256701 0.256947 0.257032
1730.00 0.256926 0.256602 0.256101 0.255503 0.254886 0.254330 0.253895
1744.00 0.253580 0.253393 0.253310 0.253300 0.253358 0.253466 0.253598
1758.00 0.253734 0.253825 0.253834 0.253741 0.253498 0.253098 0.252580
1772.00 0.251990 0.251372 0.250766 0.250179 0.249630 0.249142 0.248699
1786.00 0.248297 0.247933 0.247597 0.247288 0.246980 0.246654 0.246334
1800.00 0.246023 0.245716 0.245430 0.245170 0.244932 0.244715 0.244504
1814.00 0.244293 0.244097 0.243903 0.243693 0.243457 0.243168 0.242831
1828.00 0.242456 0.242030 0.241562 0.241069 0.240562 0.240069 0.239575
1842.00 0.239060 0.238521 0.237973 0.237472 0.237034 0.236686 0.236460
1856.00 0.236339 0.236299 0.236340 0.236479 0.236699 0.237030 0.237489
1870.00 0.238061 0.238806 0.239714 0.240781 0.242058 0.243620 0.245512
1884.00 0.247796 0.250607 0.253896 0.257700 0.262089 0.266916 0.272122
1898.00 0.277661 0.283436 0.289354 0.295253 0.301022 0.306581 0.311851
1912.00 0.316777 0.321357 0.325597 0.329423 0.332811 0.335806 0.338358
1926.00 0.340449 0.342124 0.343394 0.344240 0.344712 0.344872 0.344699
1940.00 0.344216 0.343499 0.342562 0.341451 0.340206 0.338864 0.337429
1954.00 0.335950 0.334471 0.332981 0.331520 0.330091 0.328717 0.327421
1968.00 0.326187 0.324998 0.323856 0.322762 0.321701 0.320651 0.319599
1982.00 0.318557 0.317542 0.316572 0.315666 0.314832 0.314085 0.313424
1996.00 0.312868 0.312446 0.312157 0.312024 0.312070 0.312308 0.312714
2010.00 0.313294 0.314082 0.315074 0.316282 0.317704 0.319365 0.321260
2024.00 0.323394 0.325776 0.328397 0.331244 0.334293 0.337546 0.340995
2038.00 0.344565 0.348265 0.352071 0.355982 0.359925 0.363788 0.367565
2052.00 0.371169 0.374571 0.377733 0.380555 0.383090 0.385347 0.387363
2066.00 0.389153 0.390758 0.392227 0.393571 0.394807 0.395898 0.396917
2080.00 0.397882 0.398773 0.399653 0.400519 0.401371 0.402219 0.403082
2094.00 0.403934 0.404760 0.405579 0.406394 0.407188 0.407931 0.408599
2108.00 0.409203 0.409751 0.410229 0.410634 0.410956 0.411200 0.411371
2122.00 0.411445 0.411434 0.411381 0.411311 0.411181 0.411032 0.410888
2136.00 0.410733 0.410585 0.410383 0.410132 0.409831 0.409476 0.409102
2150.00 0.408732 0.408408 0.408161 0.407978 0.407785 0.407553 0.407243
2164.00 0.406835 0.406343 0.405741 0.405030 0.404225 0.403364 0.402449
2178.00 0.401489 0.400482 0.399408 0.398286 0.397139 0.395981 0.394821
2192.00 0.393705 0.392669 0.391721 0.390851 0.390047 0.389289 0.388604
2206.00 0.387989 0.387422 0.386928 0.386501 0.386142 0.385862 0.385688
2220.00 0.385644 0.385743 0.385995 0.386481 0.387266 0.388346 0.389783
2234.00 0.391566 0.393732 0.396224 0.399083 0.402329 0.405794 0.409368
2248.00 0.413074 0.416812 0.420494 0.424133 0.427673 0.431182 0.434624
2262.00 0.437942 0.441191 0.444381 0.447452 0.450251 0.452658 0.454730
2276.00 0.456490 0.457834 0.458831 0.459664 0.460414 0.461046 0.461646
2290.00 0.462351 0.463267 0.464452 0.465931 0.467666 0.469562 0.471557
2304.00 0.473582 0.475483 0.477159 0.478483 0.479228 0.479376 0.479029
2318.00 0.478534 0.478165 0.478062 0.478193 0.478412 0.478700 0.479030
2332.00 0.479380 0.479737 0.480099 0.480439 0.480799 0.481166 0.481431
2346.00 0.481499 0.481227 0.480587 0.479523 0.478207 0.476845 0.475521
2360.00 0.474376 0.473401 0.472552 0.471819 0.471143 0.470548 0.470082
2374.00 0.469716 0.469505 0.469400 0.469357 0.469327 0.469299 0.469258
2388.00 0.469083 0.468870 0.468736 0.468621 0.468519 0.468551 0.468809
2402.00 0.469290 0.470002 0.470986 0.472140 0.473417 0.474774 0.476199
2416.00 0.477822 0.479566 0.481352 0.483230 0.485247 0.487326 0.489497
2430.00 0.491790 0.494194 0.496675 0.499327 0.502105 0.504856 0.507684
2444.00 0.510666 0.513716 0.516806 0.519947 0.523172 0.526524 0.529955
2458.00 0.533382 0.536800 0.540139 0.543322 0.546303 0.549211 0.551973
2472.00 0.554542 0.556963 0.559132 0.561074 0.562819 0.564304 0.565481
2486.00 0.566416 0.567144 0.567550 0.567819 0.567990 0.567951 0.567753
##END=
